"trial_type","trial_index","time_elapsed","internal_node_id","run_id","condition","recorded_at","source_code_version","ip","user_agent","device","browser","browser_version","platform","platform_version","age","rt","response","question_order","stimulus","task","trial_duration"
"html-keyboard-response",0,1443,"0.0-0.0",64,1,"2023-05-26 16:34:38","1ecd9d38d4622338824de6fd67a72f4c","77.229.105.137","Mozilla/5.0 (Macintosh; Intel Mac OS X 10_15_7) AppleWebKit/605.1.15 (KHTML, like Gecko) Version/14.1.2 Safari/605.1.15","Macintosh","Safari","14.1.2","OS X","10_15_7",NA,"","","","","",""
"survey-text",1,4386,"0.0-1.0",64,1,"2023-05-26 16:34:38","1ecd9d38d4622338824de6fd67a72f4c","77.229.105.137","Mozilla/5.0 (Macintosh; Intel Mac OS X 10_15_7) AppleWebKit/605.1.15 (KHTML, like Gecko) Version/14.1.2 Safari/605.1.15","Macintosh","Safari","14.1.2","OS X","10_15_7",28,"2926","{""age"":""28""}","","","",""
"survey-multi-select",2,8269,"0.0-2.0",64,1,"2023-05-26 16:34:38","1ecd9d38d4622338824de6fd67a72f4c","77.229.105.137","Mozilla/5.0 (Macintosh; Intel Mac OS X 10_15_7) AppleWebKit/605.1.15 (KHTML, like Gecko) Version/14.1.2 Safari/605.1.15","Macintosh","Safari","14.1.2","OS X","10_15_7",NA,"3878","{""Gender"":[""Mann""],""Education"":["" Postgraduierter Abschluss""]}","[0,1]","","",""
"html-keyboard-response",3,9587,"0.0-3.0",64,1,"2023-05-26 16:34:38","1ecd9d38d4622338824de6fd67a72f4c","77.229.105.137","Mozilla/5.0 (Macintosh; Intel Mac OS X 10_15_7) AppleWebKit/605.1.15 (KHTML, like Gecko) Version/14.1.2 Safari/605.1.15","Macintosh","Safari","14.1.2","OS X","10_15_7",NA,"","","","","",""
"html-keyboard-response",4,10590,"0.0-4.0-0.0",64,1,"2023-05-26 16:34:38","1ecd9d38d4622338824de6fd67a72f4c","77.229.105.137","Mozilla/5.0 (Macintosh; Intel Mac OS X 10_15_7) AppleWebKit/605.1.15 (KHTML, like Gecko) Version/14.1.2 Safari/605.1.15","Macintosh","Safari","14.1.2","OS X","10_15_7",NA,"null","null","","<div style=""font-size:60px;"">+</div>","fixation","[1000]"
"image-keyboard-response",5,18595,"0.0-4.0-1.0",64,1,"2023-05-26 16:34:38","1ecd9d38d4622338824de6fd67a72f4c","77.229.105.137","Mozilla/5.0 (Macintosh; Intel Mac OS X 10_15_7) AppleWebKit/605.1.15 (KHTML, like Gecko) Version/14.1.2 Safari/605.1.15","Macintosh","Safari","14.1.2","OS X","10_15_7",NA,"null","null","","Control_Watch.png","",""
"survey-likert",6,29458,"0.0-4.0-2.0",64,1,"2023-05-26 16:34:38","1ecd9d38d4622338824de6fd67a72f4c","77.229.105.137","Mozilla/5.0 (Macintosh; Intel Mac OS X 10_15_7) AppleWebKit/605.1.15 (KHTML, like Gecko) Version/14.1.2 Safari/605.1.15","Macintosh","Safari","14.1.2","OS X","10_15_7",NA,"10858","{""Q0"":4,""Q1"":1,""Q2"":3,""Q3"":2}","[0,1,2,3]","","",""
"html-keyboard-response",7,30461,"0.0-4.0-0.1",64,1,"2023-05-26 16:34:38","1ecd9d38d4622338824de6fd67a72f4c","77.229.105.137","Mozilla/5.0 (Macintosh; Intel Mac OS X 10_15_7) AppleWebKit/605.1.15 (KHTML, like Gecko) Version/14.1.2 Safari/605.1.15","Macintosh","Safari","14.1.2","OS X","10_15_7",NA,"null","null","","<div style=""font-size:60px;"">+</div>","fixation","[1000]"
"image-keyboard-response",8,38467,"0.0-4.0-1.1",64,1,"2023-05-26 16:34:38","1ecd9d38d4622338824de6fd67a72f4c","77.229.105.137","Mozilla/5.0 (Macintosh; Intel Mac OS X 10_15_7) AppleWebKit/605.1.15 (KHTML, like Gecko) Version/14.1.2 Safari/605.1.15","Macintosh","Safari","14.1.2","OS X","10_15_7",NA,"null","null","","Control_Headphones.png","",""
"survey-likert",9,47871,"0.0-4.0-2.1",64,1,"2023-05-26 16:34:38","1ecd9d38d4622338824de6fd67a72f4c","77.229.105.137","Mozilla/5.0 (Macintosh; Intel Mac OS X 10_15_7) AppleWebKit/605.1.15 (KHTML, like Gecko) Version/14.1.2 Safari/605.1.15","Macintosh","Safari","14.1.2","OS X","10_15_7",NA,"9399","{""Q0"":1,""Q1"":1,""Q2"":5,""Q3"":2}","[0,1,2,3]","","",""
"html-keyboard-response",10,48875,"0.0-4.0-0.2",64,1,"2023-05-26 16:34:38","1ecd9d38d4622338824de6fd67a72f4c","77.229.105.137","Mozilla/5.0 (Macintosh; Intel Mac OS X 10_15_7) AppleWebKit/605.1.15 (KHTML, like Gecko) Version/14.1.2 Safari/605.1.15","Macintosh","Safari","14.1.2","OS X","10_15_7",NA,"null","null","","<div style=""font-size:60px;"">+</div>","fixation","[1000]"
"image-keyboard-response",11,56880,"0.0-4.0-1.2",64,1,"2023-05-26 16:34:38","1ecd9d38d4622338824de6fd67a72f4c","77.229.105.137","Mozilla/5.0 (Macintosh; Intel Mac OS X 10_15_7) AppleWebKit/605.1.15 (KHTML, like Gecko) Version/14.1.2 Safari/605.1.15","Macintosh","Safari","14.1.2","OS X","10_15_7",NA,"null","null","","DE_Shortterm_watch.png","",""
"survey-likert",12,67859,"0.0-4.0-2.2",64,1,"2023-05-26 16:34:38","1ecd9d38d4622338824de6fd67a72f4c","77.229.105.137","Mozilla/5.0 (Macintosh; Intel Mac OS X 10_15_7) AppleWebKit/605.1.15 (KHTML, like Gecko) Version/14.1.2 Safari/605.1.15","Macintosh","Safari","14.1.2","OS X","10_15_7",NA,"10975","{""Q0"":3,""Q1"":1,""Q2"":5,""Q3"":2}","[0,1,2,3]","","",""
"html-keyboard-response",13,68862,"0.0-4.0-0.3",64,1,"2023-05-26 16:34:38","1ecd9d38d4622338824de6fd67a72f4c","77.229.105.137","Mozilla/5.0 (Macintosh; Intel Mac OS X 10_15_7) AppleWebKit/605.1.15 (KHTML, like Gecko) Version/14.1.2 Safari/605.1.15","Macintosh","Safari","14.1.2","OS X","10_15_7",NA,"null","null","","<div style=""font-size:60px;"">+</div>","fixation","[1000]"
"image-keyboard-response",14,76867,"0.0-4.0-1.3",64,1,"2023-05-26 16:34:38","1ecd9d38d4622338824de6fd67a72f4c","77.229.105.137","Mozilla/5.0 (Macintosh; Intel Mac OS X 10_15_7) AppleWebKit/605.1.15 (KHTML, like Gecko) Version/14.1.2 Safari/605.1.15","Macintosh","Safari","14.1.2","OS X","10_15_7",NA,"null","null","","DE_Shortterm_Headphones.png","",""
"survey-likert",15,89505,"0.0-4.0-2.3",64,1,"2023-05-26 16:34:38","1ecd9d38d4622338824de6fd67a72f4c","77.229.105.137","Mozilla/5.0 (Macintosh; Intel Mac OS X 10_15_7) AppleWebKit/605.1.15 (KHTML, like Gecko) Version/14.1.2 Safari/605.1.15","Macintosh","Safari","14.1.2","OS X","10_15_7",NA,"12633","{""Q0"":2,""Q1"":3,""Q2"":4,""Q3"":1}","[0,1,2,3]","","",""
"html-keyboard-response",16,90509,"0.0-4.0-0.4",64,1,"2023-05-26 16:34:38","1ecd9d38d4622338824de6fd67a72f4c","77.229.105.137","Mozilla/5.0 (Macintosh; Intel Mac OS X 10_15_7) AppleWebKit/605.1.15 (KHTML, like Gecko) Version/14.1.2 Safari/605.1.15","Macintosh","Safari","14.1.2","OS X","10_15_7",NA,"null","null","","<div style=""font-size:60px;"">+</div>","fixation","[1000]"
"image-keyboard-response",17,98514,"0.0-4.0-1.4",64,1,"2023-05-26 16:34:38","1ecd9d38d4622338824de6fd67a72f4c","77.229.105.137","Mozilla/5.0 (Macintosh; Intel Mac OS X 10_15_7) AppleWebKit/605.1.15 (KHTML, like Gecko) Version/14.1.2 Safari/605.1.15","Macintosh","Safari","14.1.2","OS X","10_15_7",NA,"null","null","","DE_Shortterm_Toothbrush.png","",""
"survey-likert",18,104345,"0.0-4.0-2.4",64,1,"2023-05-26 16:34:38","1ecd9d38d4622338824de6fd67a72f4c","77.229.105.137","Mozilla/5.0 (Macintosh; Intel Mac OS X 10_15_7) AppleWebKit/605.1.15 (KHTML, like Gecko) Version/14.1.2 Safari/605.1.15","Macintosh","Safari","14.1.2","OS X","10_15_7",NA,"5827","{""Q0"":4,""Q1"":4,""Q2"":4,""Q3"":4}","[0,1,2,3]","","",""
"html-keyboard-response",19,105349,"0.0-4.0-0.5",64,1,"2023-05-26 16:34:38","1ecd9d38d4622338824de6fd67a72f4c","77.229.105.137","Mozilla/5.0 (Macintosh; Intel Mac OS X 10_15_7) AppleWebKit/605.1.15 (KHTML, like Gecko) Version/14.1.2 Safari/605.1.15","Macintosh","Safari","14.1.2","OS X","10_15_7",NA,"null","null","","<div style=""font-size:60px;"">+</div>","fixation","[1000]"
"image-keyboard-response",20,113354,"0.0-4.0-1.5",64,1,"2023-05-26 16:34:38","1ecd9d38d4622338824de6fd67a72f4c","77.229.105.137","Mozilla/5.0 (Macintosh; Intel Mac OS X 10_15_7) AppleWebKit/605.1.15 (KHTML, like Gecko) Version/14.1.2 Safari/605.1.15","Macintosh","Safari","14.1.2","OS X","10_15_7",NA,"null","null","","DE_Longterm_Headphones.png","",""
"survey-likert",21,124194,"0.0-4.0-2.5",64,1,"2023-05-26 16:34:38","1ecd9d38d4622338824de6fd67a72f4c","77.229.105.137","Mozilla/5.0 (Macintosh; Intel Mac OS X 10_15_7) AppleWebKit/605.1.15 (KHTML, like Gecko) Version/14.1.2 Safari/605.1.15","Macintosh","Safari","14.1.2","OS X","10_15_7",NA,"10835","{""Q0"":6,""Q1"":4,""Q2"":3,""Q3"":6}","[0,1,2,3]","","",""
"html-keyboard-response",22,125196,"0.0-4.0-0.6",64,1,"2023-05-26 16:34:38","1ecd9d38d4622338824de6fd67a72f4c","77.229.105.137","Mozilla/5.0 (Macintosh; Intel Mac OS X 10_15_7) AppleWebKit/605.1.15 (KHTML, like Gecko) Version/14.1.2 Safari/605.1.15","Macintosh","Safari","14.1.2","OS X","10_15_7",NA,"null","null","","<div style=""font-size:60px;"">+</div>","fixation","[1000]"
"image-keyboard-response",23,133201,"0.0-4.0-1.6",64,1,"2023-05-26 16:34:38","1ecd9d38d4622338824de6fd67a72f4c","77.229.105.137","Mozilla/5.0 (Macintosh; Intel Mac OS X 10_15_7) AppleWebKit/605.1.15 (KHTML, like Gecko) Version/14.1.2 Safari/605.1.15","Macintosh","Safari","14.1.2","OS X","10_15_7",NA,"null","null","","DE_LongTerm_Toothbrush.png","",""
"survey-likert",24,141220,"0.0-4.0-2.6",64,1,"2023-05-26 16:34:38","1ecd9d38d4622338824de6fd67a72f4c","77.229.105.137","Mozilla/5.0 (Macintosh; Intel Mac OS X 10_15_7) AppleWebKit/605.1.15 (KHTML, like Gecko) Version/14.1.2 Safari/605.1.15","Macintosh","Safari","14.1.2","OS X","10_15_7",NA,"8014","{""Q0"":5,""Q1"":6,""Q2"":4,""Q3"":7}","[0,1,2,3]","","",""
"html-keyboard-response",25,142225,"0.0-4.0-0.7",64,1,"2023-05-26 16:34:38","1ecd9d38d4622338824de6fd67a72f4c","77.229.105.137","Mozilla/5.0 (Macintosh; Intel Mac OS X 10_15_7) AppleWebKit/605.1.15 (KHTML, like Gecko) Version/14.1.2 Safari/605.1.15","Macintosh","Safari","14.1.2","OS X","10_15_7",NA,"null","null","","<div style=""font-size:60px;"">+</div>","fixation","[1000]"
"image-keyboard-response",26,150230,"0.0-4.0-1.7",64,1,"2023-05-26 16:34:38","1ecd9d38d4622338824de6fd67a72f4c","77.229.105.137","Mozilla/5.0 (Macintosh; Intel Mac OS X 10_15_7) AppleWebKit/605.1.15 (KHTML, like Gecko) Version/14.1.2 Safari/605.1.15","Macintosh","Safari","14.1.2","OS X","10_15_7",NA,"null","null","","Control_Toothbrush.png","",""
"survey-likert",27,163774,"0.0-4.0-2.7",64,1,"2023-05-26 16:34:38","1ecd9d38d4622338824de6fd67a72f4c","77.229.105.137","Mozilla/5.0 (Macintosh; Intel Mac OS X 10_15_7) AppleWebKit/605.1.15 (KHTML, like Gecko) Version/14.1.2 Safari/605.1.15","Macintosh","Safari","14.1.2","OS X","10_15_7",NA,"13539","{""Q0"":4,""Q1"":4,""Q2"":5,""Q3"":3}","[0,1,2,3]","","",""
"html-keyboard-response",28,164778,"0.0-4.0-0.8",64,1,"2023-05-26 16:34:38","1ecd9d38d4622338824de6fd67a72f4c","77.229.105.137","Mozilla/5.0 (Macintosh; Intel Mac OS X 10_15_7) AppleWebKit/605.1.15 (KHTML, like Gecko) Version/14.1.2 Safari/605.1.15","Macintosh","Safari","14.1.2","OS X","10_15_7",NA,"null","null","","<div style=""font-size:60px;"">+</div>","fixation","[1000]"
"image-keyboard-response",29,172783,"0.0-4.0-1.8",64,1,"2023-05-26 16:34:38","1ecd9d38d4622338824de6fd67a72f4c","77.229.105.137","Mozilla/5.0 (Macintosh; Intel Mac OS X 10_15_7) AppleWebKit/605.1.15 (KHTML, like Gecko) Version/14.1.2 Safari/605.1.15","Macintosh","Safari","14.1.2","OS X","10_15_7",NA,"null","null","","DE_Longterm_Watch.png","",""
"survey-likert",30,183618,"0.0-4.0-2.8",64,1,"2023-05-26 16:34:38","1ecd9d38d4622338824de6fd67a72f4c","77.229.105.137","Mozilla/5.0 (Macintosh; Intel Mac OS X 10_15_7) AppleWebKit/605.1.15 (KHTML, like Gecko) Version/14.1.2 Safari/605.1.15","Macintosh","Safari","14.1.2","OS X","10_15_7",NA,"10831","{""Q0"":5,""Q1"":6,""Q2"":4,""Q3"":6}","[0,1,2,3]","","",""
"html-keyboard-response",31,185206,"0.0-5.0",64,1,"2023-05-26 16:34:38","1ecd9d38d4622338824de6fd67a72f4c","77.229.105.137","Mozilla/5.0 (Macintosh; Intel Mac OS X 10_15_7) AppleWebKit/605.1.15 (KHTML, like Gecko) Version/14.1.2 Safari/605.1.15","Macintosh","Safari","14.1.2","OS X","10_15_7",NA,"","","","","",""
