"trial_type","trial_index","time_elapsed","internal_node_id","run_id","condition","recorded_at","source_code_version","ip","user_agent","device","browser","browser_version","platform","platform_version","age","rt","response","question_order","stimulus","task","trial_duration"
"html-keyboard-response",0,1429,"0.0-0.0",65,1,"2023-05-26 16:37:55","1ecd9d38d4622338824de6fd67a72f4c","77.229.105.137","Mozilla/5.0 (Macintosh; Intel Mac OS X 10_15_7) AppleWebKit/605.1.15 (KHTML, like Gecko) Version/14.1.2 Safari/605.1.15","Macintosh","Safari","14.1.2","OS X","10_15_7",NA,"","","","","",""
"survey-text",1,6234,"0.0-1.0",65,1,"2023-05-26 16:37:55","1ecd9d38d4622338824de6fd67a72f4c","77.229.105.137","Mozilla/5.0 (Macintosh; Intel Mac OS X 10_15_7) AppleWebKit/605.1.15 (KHTML, like Gecko) Version/14.1.2 Safari/605.1.15","Macintosh","Safari","14.1.2","OS X","10_15_7",26,"4793","{""age"":""26""}","","","",""
"survey-multi-select",2,9643,"0.0-2.0",65,1,"2023-05-26 16:37:55","1ecd9d38d4622338824de6fd67a72f4c","77.229.105.137","Mozilla/5.0 (Macintosh; Intel Mac OS X 10_15_7) AppleWebKit/605.1.15 (KHTML, like Gecko) Version/14.1.2 Safari/605.1.15","Macintosh","Safari","14.1.2","OS X","10_15_7",NA,"3406","{""Gender"":[""Frau""],""Education"":[""Hochschulabschluss/berufliches Äquivalent""]}","[0,1]","","",""
"html-keyboard-response",3,10844,"0.0-3.0",65,1,"2023-05-26 16:37:55","1ecd9d38d4622338824de6fd67a72f4c","77.229.105.137","Mozilla/5.0 (Macintosh; Intel Mac OS X 10_15_7) AppleWebKit/605.1.15 (KHTML, like Gecko) Version/14.1.2 Safari/605.1.15","Macintosh","Safari","14.1.2","OS X","10_15_7",NA,"","","","","",""
"html-keyboard-response",4,11847,"0.0-4.0-0.0",65,1,"2023-05-26 16:37:55","1ecd9d38d4622338824de6fd67a72f4c","77.229.105.137","Mozilla/5.0 (Macintosh; Intel Mac OS X 10_15_7) AppleWebKit/605.1.15 (KHTML, like Gecko) Version/14.1.2 Safari/605.1.15","Macintosh","Safari","14.1.2","OS X","10_15_7",NA,"null","null","","<div style=""font-size:60px;"">+</div>","fixation","[1000]"
"image-keyboard-response",5,19852,"0.0-4.0-1.0",65,1,"2023-05-26 16:37:55","1ecd9d38d4622338824de6fd67a72f4c","77.229.105.137","Mozilla/5.0 (Macintosh; Intel Mac OS X 10_15_7) AppleWebKit/605.1.15 (KHTML, like Gecko) Version/14.1.2 Safari/605.1.15","Macintosh","Safari","14.1.2","OS X","10_15_7",NA,"null","null","","Control_Watch.png","",""
"survey-likert",6,27099,"0.0-4.0-2.0",65,1,"2023-05-26 16:37:55","1ecd9d38d4622338824de6fd67a72f4c","77.229.105.137","Mozilla/5.0 (Macintosh; Intel Mac OS X 10_15_7) AppleWebKit/605.1.15 (KHTML, like Gecko) Version/14.1.2 Safari/605.1.15","Macintosh","Safari","14.1.2","OS X","10_15_7",NA,"7242","{""Q0"":4,""Q1"":4,""Q2"":4,""Q3"":4}","[0,1,2,3]","","",""
"html-keyboard-response",7,28103,"0.0-4.0-0.1",65,1,"2023-05-26 16:37:55","1ecd9d38d4622338824de6fd67a72f4c","77.229.105.137","Mozilla/5.0 (Macintosh; Intel Mac OS X 10_15_7) AppleWebKit/605.1.15 (KHTML, like Gecko) Version/14.1.2 Safari/605.1.15","Macintosh","Safari","14.1.2","OS X","10_15_7",NA,"null","null","","<div style=""font-size:60px;"">+</div>","fixation","[1000]"
"image-keyboard-response",8,36108,"0.0-4.0-1.1",65,1,"2023-05-26 16:37:55","1ecd9d38d4622338824de6fd67a72f4c","77.229.105.137","Mozilla/5.0 (Macintosh; Intel Mac OS X 10_15_7) AppleWebKit/605.1.15 (KHTML, like Gecko) Version/14.1.2 Safari/605.1.15","Macintosh","Safari","14.1.2","OS X","10_15_7",NA,"null","null","","DE_LongTerm_Toothbrush.png","",""
"survey-likert",9,43730,"0.0-4.0-2.1",65,1,"2023-05-26 16:37:55","1ecd9d38d4622338824de6fd67a72f4c","77.229.105.137","Mozilla/5.0 (Macintosh; Intel Mac OS X 10_15_7) AppleWebKit/605.1.15 (KHTML, like Gecko) Version/14.1.2 Safari/605.1.15","Macintosh","Safari","14.1.2","OS X","10_15_7",NA,"7620","{""Q0"":6,""Q1"":7,""Q2"":3,""Q3"":5}","[0,1,2,3]","","",""
"html-keyboard-response",10,44733,"0.0-4.0-0.2",65,1,"2023-05-26 16:37:55","1ecd9d38d4622338824de6fd67a72f4c","77.229.105.137","Mozilla/5.0 (Macintosh; Intel Mac OS X 10_15_7) AppleWebKit/605.1.15 (KHTML, like Gecko) Version/14.1.2 Safari/605.1.15","Macintosh","Safari","14.1.2","OS X","10_15_7",NA,"null","null","","<div style=""font-size:60px;"">+</div>","fixation","[1000]"
"image-keyboard-response",11,52738,"0.0-4.0-1.2",65,1,"2023-05-26 16:37:55","1ecd9d38d4622338824de6fd67a72f4c","77.229.105.137","Mozilla/5.0 (Macintosh; Intel Mac OS X 10_15_7) AppleWebKit/605.1.15 (KHTML, like Gecko) Version/14.1.2 Safari/605.1.15","Macintosh","Safari","14.1.2","OS X","10_15_7",NA,"null","null","","Control_Headphones.png","",""
"survey-likert",12,65009,"0.0-4.0-2.2",65,1,"2023-05-26 16:37:55","1ecd9d38d4622338824de6fd67a72f4c","77.229.105.137","Mozilla/5.0 (Macintosh; Intel Mac OS X 10_15_7) AppleWebKit/605.1.15 (KHTML, like Gecko) Version/14.1.2 Safari/605.1.15","Macintosh","Safari","14.1.2","OS X","10_15_7",NA,"12266","{""Q0"":4,""Q1"":3,""Q2"":4,""Q3"":5}","[0,1,2,3]","","",""
"html-keyboard-response",13,66012,"0.0-4.0-0.3",65,1,"2023-05-26 16:37:55","1ecd9d38d4622338824de6fd67a72f4c","77.229.105.137","Mozilla/5.0 (Macintosh; Intel Mac OS X 10_15_7) AppleWebKit/605.1.15 (KHTML, like Gecko) Version/14.1.2 Safari/605.1.15","Macintosh","Safari","14.1.2","OS X","10_15_7",NA,"null","null","","<div style=""font-size:60px;"">+</div>","fixation","[1000]"
"image-keyboard-response",14,74017,"0.0-4.0-1.3",65,1,"2023-05-26 16:37:55","1ecd9d38d4622338824de6fd67a72f4c","77.229.105.137","Mozilla/5.0 (Macintosh; Intel Mac OS X 10_15_7) AppleWebKit/605.1.15 (KHTML, like Gecko) Version/14.1.2 Safari/605.1.15","Macintosh","Safari","14.1.2","OS X","10_15_7",NA,"null","null","","Control_Toothbrush.png","",""
"survey-likert",15,81629,"0.0-4.0-2.3",65,1,"2023-05-26 16:37:55","1ecd9d38d4622338824de6fd67a72f4c","77.229.105.137","Mozilla/5.0 (Macintosh; Intel Mac OS X 10_15_7) AppleWebKit/605.1.15 (KHTML, like Gecko) Version/14.1.2 Safari/605.1.15","Macintosh","Safari","14.1.2","OS X","10_15_7",NA,"7607","{""Q0"":5,""Q1"":4,""Q2"":4,""Q3"":3}","[0,1,2,3]","","",""
"html-keyboard-response",16,82632,"0.0-4.0-0.4",65,1,"2023-05-26 16:37:55","1ecd9d38d4622338824de6fd67a72f4c","77.229.105.137","Mozilla/5.0 (Macintosh; Intel Mac OS X 10_15_7) AppleWebKit/605.1.15 (KHTML, like Gecko) Version/14.1.2 Safari/605.1.15","Macintosh","Safari","14.1.2","OS X","10_15_7",NA,"null","null","","<div style=""font-size:60px;"">+</div>","fixation","[1000]"
"image-keyboard-response",17,90638,"0.0-4.0-1.4",65,1,"2023-05-26 16:37:55","1ecd9d38d4622338824de6fd67a72f4c","77.229.105.137","Mozilla/5.0 (Macintosh; Intel Mac OS X 10_15_7) AppleWebKit/605.1.15 (KHTML, like Gecko) Version/14.1.2 Safari/605.1.15","Macintosh","Safari","14.1.2","OS X","10_15_7",NA,"null","null","","DE_Longterm_Watch.png","",""
"survey-likert",18,99056,"0.0-4.0-2.4",65,1,"2023-05-26 16:37:55","1ecd9d38d4622338824de6fd67a72f4c","77.229.105.137","Mozilla/5.0 (Macintosh; Intel Mac OS X 10_15_7) AppleWebKit/605.1.15 (KHTML, like Gecko) Version/14.1.2 Safari/605.1.15","Macintosh","Safari","14.1.2","OS X","10_15_7",NA,"8414","{""Q0"":6,""Q1"":5,""Q2"":2,""Q3"":6}","[0,1,2,3]","","",""
"html-keyboard-response",19,100060,"0.0-4.0-0.5",65,1,"2023-05-26 16:37:55","1ecd9d38d4622338824de6fd67a72f4c","77.229.105.137","Mozilla/5.0 (Macintosh; Intel Mac OS X 10_15_7) AppleWebKit/605.1.15 (KHTML, like Gecko) Version/14.1.2 Safari/605.1.15","Macintosh","Safari","14.1.2","OS X","10_15_7",NA,"null","null","","<div style=""font-size:60px;"">+</div>","fixation","[1000]"
"image-keyboard-response",20,108065,"0.0-4.0-1.5",65,1,"2023-05-26 16:37:55","1ecd9d38d4622338824de6fd67a72f4c","77.229.105.137","Mozilla/5.0 (Macintosh; Intel Mac OS X 10_15_7) AppleWebKit/605.1.15 (KHTML, like Gecko) Version/14.1.2 Safari/605.1.15","Macintosh","Safari","14.1.2","OS X","10_15_7",NA,"null","null","","DE_Shortterm_Toothbrush.png","",""
"survey-likert",21,121580,"0.0-4.0-2.5",65,1,"2023-05-26 16:37:55","1ecd9d38d4622338824de6fd67a72f4c","77.229.105.137","Mozilla/5.0 (Macintosh; Intel Mac OS X 10_15_7) AppleWebKit/605.1.15 (KHTML, like Gecko) Version/14.1.2 Safari/605.1.15","Macintosh","Safari","14.1.2","OS X","10_15_7",NA,"13511","{""Q0"":2,""Q1"":4,""Q2"":4,""Q3"":1}","[0,1,2,3]","","",""
"html-keyboard-response",22,122584,"0.0-4.0-0.6",65,1,"2023-05-26 16:37:55","1ecd9d38d4622338824de6fd67a72f4c","77.229.105.137","Mozilla/5.0 (Macintosh; Intel Mac OS X 10_15_7) AppleWebKit/605.1.15 (KHTML, like Gecko) Version/14.1.2 Safari/605.1.15","Macintosh","Safari","14.1.2","OS X","10_15_7",NA,"null","null","","<div style=""font-size:60px;"">+</div>","fixation","[1000]"
"image-keyboard-response",23,130589,"0.0-4.0-1.6",65,1,"2023-05-26 16:37:55","1ecd9d38d4622338824de6fd67a72f4c","77.229.105.137","Mozilla/5.0 (Macintosh; Intel Mac OS X 10_15_7) AppleWebKit/605.1.15 (KHTML, like Gecko) Version/14.1.2 Safari/605.1.15","Macintosh","Safari","14.1.2","OS X","10_15_7",NA,"null","null","","DE_Shortterm_watch.png","",""
"survey-likert",24,136396,"0.0-4.0-2.6",65,1,"2023-05-26 16:37:55","1ecd9d38d4622338824de6fd67a72f4c","77.229.105.137","Mozilla/5.0 (Macintosh; Intel Mac OS X 10_15_7) AppleWebKit/605.1.15 (KHTML, like Gecko) Version/14.1.2 Safari/605.1.15","Macintosh","Safari","14.1.2","OS X","10_15_7",NA,"5803","{""Q0"":3,""Q1"":4,""Q2"":4,""Q3"":3}","[0,1,2,3]","","",""
"html-keyboard-response",25,137400,"0.0-4.0-0.7",65,1,"2023-05-26 16:37:55","1ecd9d38d4622338824de6fd67a72f4c","77.229.105.137","Mozilla/5.0 (Macintosh; Intel Mac OS X 10_15_7) AppleWebKit/605.1.15 (KHTML, like Gecko) Version/14.1.2 Safari/605.1.15","Macintosh","Safari","14.1.2","OS X","10_15_7",NA,"null","null","","<div style=""font-size:60px;"">+</div>","fixation","[1000]"
"image-keyboard-response",26,145405,"0.0-4.0-1.7",65,1,"2023-05-26 16:37:55","1ecd9d38d4622338824de6fd67a72f4c","77.229.105.137","Mozilla/5.0 (Macintosh; Intel Mac OS X 10_15_7) AppleWebKit/605.1.15 (KHTML, like Gecko) Version/14.1.2 Safari/605.1.15","Macintosh","Safari","14.1.2","OS X","10_15_7",NA,"null","null","","DE_Shortterm_Headphones.png","",""
"survey-likert",27,160278,"0.0-4.0-2.7",65,1,"2023-05-26 16:37:55","1ecd9d38d4622338824de6fd67a72f4c","77.229.105.137","Mozilla/5.0 (Macintosh; Intel Mac OS X 10_15_7) AppleWebKit/605.1.15 (KHTML, like Gecko) Version/14.1.2 Safari/605.1.15","Macintosh","Safari","14.1.2","OS X","10_15_7",NA,"14868","{""Q0"":2,""Q1"":5,""Q2"":4,""Q3"":0}","[0,1,2,3]","","",""
"html-keyboard-response",28,161282,"0.0-4.0-0.8",65,1,"2023-05-26 16:37:55","1ecd9d38d4622338824de6fd67a72f4c","77.229.105.137","Mozilla/5.0 (Macintosh; Intel Mac OS X 10_15_7) AppleWebKit/605.1.15 (KHTML, like Gecko) Version/14.1.2 Safari/605.1.15","Macintosh","Safari","14.1.2","OS X","10_15_7",NA,"null","null","","<div style=""font-size:60px;"">+</div>","fixation","[1000]"
"image-keyboard-response",29,169286,"0.0-4.0-1.8",65,1,"2023-05-26 16:37:55","1ecd9d38d4622338824de6fd67a72f4c","77.229.105.137","Mozilla/5.0 (Macintosh; Intel Mac OS X 10_15_7) AppleWebKit/605.1.15 (KHTML, like Gecko) Version/14.1.2 Safari/605.1.15","Macintosh","Safari","14.1.2","OS X","10_15_7",NA,"null","null","","DE_Longterm_Headphones.png","",""
"survey-likert",30,176600,"0.0-4.0-2.8",65,1,"2023-05-26 16:37:55","1ecd9d38d4622338824de6fd67a72f4c","77.229.105.137","Mozilla/5.0 (Macintosh; Intel Mac OS X 10_15_7) AppleWebKit/605.1.15 (KHTML, like Gecko) Version/14.1.2 Safari/605.1.15","Macintosh","Safari","14.1.2","OS X","10_15_7",NA,"7309","{""Q0"":5,""Q1"":5,""Q2"":3,""Q3"":6}","[0,1,2,3]","","",""
"html-keyboard-response",31,177868,"0.0-5.0",65,1,"2023-05-26 16:37:55","1ecd9d38d4622338824de6fd67a72f4c","77.229.105.137","Mozilla/5.0 (Macintosh; Intel Mac OS X 10_15_7) AppleWebKit/605.1.15 (KHTML, like Gecko) Version/14.1.2 Safari/605.1.15","Macintosh","Safari","14.1.2","OS X","10_15_7",NA,"","","","","",""
