"trial_type","trial_index","time_elapsed","internal_node_id","run_id","condition","recorded_at","source_code_version","ip","user_agent","device","browser","browser_version","platform","platform_version","age","rt","response","question_order","stimulus","task","trial_duration"
"html-keyboard-response",0,1630,"0.0-0.0",80,1,"2023-05-28 21:12:35","1ecd9d38d4622338824de6fd67a72f4c","106.72.54.128","Mozilla/5.0 (iPhone; CPU iPhone OS 16_4_1 like Mac OS X) AppleWebKit/605.1.15 (KHTML, like Gecko) Version/16.4 Mobile/15E148 Safari/604.1","iPhone","Safari",16.4,"iOS","16_4_1",NA,"","","","","",""
"survey-text",1,4270,"0.0-1.0",80,1,"2023-05-28 21:12:35","1ecd9d38d4622338824de6fd67a72f4c","106.72.54.128","Mozilla/5.0 (iPhone; CPU iPhone OS 16_4_1 like Mac OS X) AppleWebKit/605.1.15 (KHTML, like Gecko) Version/16.4 Mobile/15E148 Safari/604.1","iPhone","Safari",16.4,"iOS","16_4_1",22,"2599","{""age"":""22""}","","","",""
"survey-multi-select",2,10334,"0.0-2.0",80,1,"2023-05-28 21:12:35","1ecd9d38d4622338824de6fd67a72f4c","106.72.54.128","Mozilla/5.0 (iPhone; CPU iPhone OS 16_4_1 like Mac OS X) AppleWebKit/605.1.15 (KHTML, like Gecko) Version/16.4 Mobile/15E148 Safari/604.1","iPhone","Safari",16.4,"iOS","16_4_1",NA,"6060","{""Gender"":[""Frau""],""Education"":["" Sekundarstufe (Alter: 11-17 Jahre)""]}","[0,1]","","",""
"html-keyboard-response",3,12784,"0.0-3.0",80,1,"2023-05-28 21:12:35","1ecd9d38d4622338824de6fd67a72f4c","106.72.54.128","Mozilla/5.0 (iPhone; CPU iPhone OS 16_4_1 like Mac OS X) AppleWebKit/605.1.15 (KHTML, like Gecko) Version/16.4 Mobile/15E148 Safari/604.1","iPhone","Safari",16.4,"iOS","16_4_1",NA,"","","","","",""
"html-keyboard-response",4,13789,"0.0-4.0-0.0",80,1,"2023-05-28 21:12:35","1ecd9d38d4622338824de6fd67a72f4c","106.72.54.128","Mozilla/5.0 (iPhone; CPU iPhone OS 16_4_1 like Mac OS X) AppleWebKit/605.1.15 (KHTML, like Gecko) Version/16.4 Mobile/15E148 Safari/604.1","iPhone","Safari",16.4,"iOS","16_4_1",NA,"null","null","","<div style=""font-size:60px;"">+</div>","fixation","[1000]"
"image-keyboard-response",5,21847,"0.0-4.0-1.0",80,1,"2023-05-28 21:12:35","1ecd9d38d4622338824de6fd67a72f4c","106.72.54.128","Mozilla/5.0 (iPhone; CPU iPhone OS 16_4_1 like Mac OS X) AppleWebKit/605.1.15 (KHTML, like Gecko) Version/16.4 Mobile/15E148 Safari/604.1","iPhone","Safari",16.4,"iOS","16_4_1",NA,"null","null","","Control_Toothbrush.png","",""
"survey-likert",6,30347,"0.0-4.0-2.0",80,1,"2023-05-28 21:12:35","1ecd9d38d4622338824de6fd67a72f4c","106.72.54.128","Mozilla/5.0 (iPhone; CPU iPhone OS 16_4_1 like Mac OS X) AppleWebKit/605.1.15 (KHTML, like Gecko) Version/16.4 Mobile/15E148 Safari/604.1","iPhone","Safari",16.4,"iOS","16_4_1",NA,"8494","{""Q0"":4,""Q1"":4,""Q2"":4,""Q3"":4}","[0,1,2,3]","","",""
"html-keyboard-response",7,31351,"0.0-4.0-0.1",80,1,"2023-05-28 21:12:35","1ecd9d38d4622338824de6fd67a72f4c","106.72.54.128","Mozilla/5.0 (iPhone; CPU iPhone OS 16_4_1 like Mac OS X) AppleWebKit/605.1.15 (KHTML, like Gecko) Version/16.4 Mobile/15E148 Safari/604.1","iPhone","Safari",16.4,"iOS","16_4_1",NA,"null","null","","<div style=""font-size:60px;"">+</div>","fixation","[1000]"
"image-keyboard-response",8,39414,"0.0-4.0-1.1",80,1,"2023-05-28 21:12:35","1ecd9d38d4622338824de6fd67a72f4c","106.72.54.128","Mozilla/5.0 (iPhone; CPU iPhone OS 16_4_1 like Mac OS X) AppleWebKit/605.1.15 (KHTML, like Gecko) Version/16.4 Mobile/15E148 Safari/604.1","iPhone","Safari",16.4,"iOS","16_4_1",NA,"null","null","","DE_Shortterm_Headphones.png","",""
"survey-likert",9,55429,"0.0-4.0-2.1",80,1,"2023-05-28 21:12:35","1ecd9d38d4622338824de6fd67a72f4c","106.72.54.128","Mozilla/5.0 (iPhone; CPU iPhone OS 16_4_1 like Mac OS X) AppleWebKit/605.1.15 (KHTML, like Gecko) Version/16.4 Mobile/15E148 Safari/604.1","iPhone","Safari",16.4,"iOS","16_4_1",NA,"16011","{""Q0"":6,""Q1"":6,""Q2"":2,""Q3"":5}","[0,1,2,3]","","",""
"html-keyboard-response",10,56433,"0.0-4.0-0.2",80,1,"2023-05-28 21:12:35","1ecd9d38d4622338824de6fd67a72f4c","106.72.54.128","Mozilla/5.0 (iPhone; CPU iPhone OS 16_4_1 like Mac OS X) AppleWebKit/605.1.15 (KHTML, like Gecko) Version/16.4 Mobile/15E148 Safari/604.1","iPhone","Safari",16.4,"iOS","16_4_1",NA,"null","null","","<div style=""font-size:60px;"">+</div>","fixation","[1000]"
"image-keyboard-response",11,64474,"0.0-4.0-1.2",80,1,"2023-05-28 21:12:35","1ecd9d38d4622338824de6fd67a72f4c","106.72.54.128","Mozilla/5.0 (iPhone; CPU iPhone OS 16_4_1 like Mac OS X) AppleWebKit/605.1.15 (KHTML, like Gecko) Version/16.4 Mobile/15E148 Safari/604.1","iPhone","Safari",16.4,"iOS","16_4_1",NA,"null","null","","DE_Shortterm_watch.png","",""
"survey-likert",12,82524,"0.0-4.0-2.2",80,1,"2023-05-28 21:12:35","1ecd9d38d4622338824de6fd67a72f4c","106.72.54.128","Mozilla/5.0 (iPhone; CPU iPhone OS 16_4_1 like Mac OS X) AppleWebKit/605.1.15 (KHTML, like Gecko) Version/16.4 Mobile/15E148 Safari/604.1","iPhone","Safari",16.4,"iOS","16_4_1",NA,"18045","{""Q0"":2,""Q1"":1,""Q2"":5,""Q3"":5}","[0,1,2,3]","","",""
"html-keyboard-response",13,83529,"0.0-4.0-0.3",80,1,"2023-05-28 21:12:35","1ecd9d38d4622338824de6fd67a72f4c","106.72.54.128","Mozilla/5.0 (iPhone; CPU iPhone OS 16_4_1 like Mac OS X) AppleWebKit/605.1.15 (KHTML, like Gecko) Version/16.4 Mobile/15E148 Safari/604.1","iPhone","Safari",16.4,"iOS","16_4_1",NA,"null","null","","<div style=""font-size:60px;"">+</div>","fixation","[1000]"
"image-keyboard-response",14,91584,"0.0-4.0-1.3",80,1,"2023-05-28 21:12:35","1ecd9d38d4622338824de6fd67a72f4c","106.72.54.128","Mozilla/5.0 (iPhone; CPU iPhone OS 16_4_1 like Mac OS X) AppleWebKit/605.1.15 (KHTML, like Gecko) Version/16.4 Mobile/15E148 Safari/604.1","iPhone","Safari",16.4,"iOS","16_4_1",NA,"null","null","","DE_LongTerm_Toothbrush.png","",""
"survey-likert",15,114792,"0.0-4.0-2.3",80,1,"2023-05-28 21:12:35","1ecd9d38d4622338824de6fd67a72f4c","106.72.54.128","Mozilla/5.0 (iPhone; CPU iPhone OS 16_4_1 like Mac OS X) AppleWebKit/605.1.15 (KHTML, like Gecko) Version/16.4 Mobile/15E148 Safari/604.1","iPhone","Safari",16.4,"iOS","16_4_1",NA,"23203","{""Q0"":7,""Q1"":7,""Q2"":1,""Q3"":7}","[0,1,2,3]","","",""
"html-keyboard-response",16,115797,"0.0-4.0-0.4",80,1,"2023-05-28 21:12:35","1ecd9d38d4622338824de6fd67a72f4c","106.72.54.128","Mozilla/5.0 (iPhone; CPU iPhone OS 16_4_1 like Mac OS X) AppleWebKit/605.1.15 (KHTML, like Gecko) Version/16.4 Mobile/15E148 Safari/604.1","iPhone","Safari",16.4,"iOS","16_4_1",NA,"null","null","","<div style=""font-size:60px;"">+</div>","fixation","[1000]"
"image-keyboard-response",17,123836,"0.0-4.0-1.4",80,1,"2023-05-28 21:12:35","1ecd9d38d4622338824de6fd67a72f4c","106.72.54.128","Mozilla/5.0 (iPhone; CPU iPhone OS 16_4_1 like Mac OS X) AppleWebKit/605.1.15 (KHTML, like Gecko) Version/16.4 Mobile/15E148 Safari/604.1","iPhone","Safari",16.4,"iOS","16_4_1",NA,"null","null","","Control_Watch.png","",""
"survey-likert",18,131787,"0.0-4.0-2.4",80,1,"2023-05-28 21:12:35","1ecd9d38d4622338824de6fd67a72f4c","106.72.54.128","Mozilla/5.0 (iPhone; CPU iPhone OS 16_4_1 like Mac OS X) AppleWebKit/605.1.15 (KHTML, like Gecko) Version/16.4 Mobile/15E148 Safari/604.1","iPhone","Safari",16.4,"iOS","16_4_1",NA,"7945","{""Q0"":4,""Q1"":4,""Q2"":4,""Q3"":4}","[0,1,2,3]","","",""
"html-keyboard-response",19,132792,"0.0-4.0-0.5",80,1,"2023-05-28 21:12:35","1ecd9d38d4622338824de6fd67a72f4c","106.72.54.128","Mozilla/5.0 (iPhone; CPU iPhone OS 16_4_1 like Mac OS X) AppleWebKit/605.1.15 (KHTML, like Gecko) Version/16.4 Mobile/15E148 Safari/604.1","iPhone","Safari",16.4,"iOS","16_4_1",NA,"null","null","","<div style=""font-size:60px;"">+</div>","fixation","[1000]"
"image-keyboard-response",20,140849,"0.0-4.0-1.5",80,1,"2023-05-28 21:12:35","1ecd9d38d4622338824de6fd67a72f4c","106.72.54.128","Mozilla/5.0 (iPhone; CPU iPhone OS 16_4_1 like Mac OS X) AppleWebKit/605.1.15 (KHTML, like Gecko) Version/16.4 Mobile/15E148 Safari/604.1","iPhone","Safari",16.4,"iOS","16_4_1",NA,"null","null","","DE_Shortterm_Toothbrush.png","",""
"survey-likert",21,154155,"0.0-4.0-2.5",80,1,"2023-05-28 21:12:35","1ecd9d38d4622338824de6fd67a72f4c","106.72.54.128","Mozilla/5.0 (iPhone; CPU iPhone OS 16_4_1 like Mac OS X) AppleWebKit/605.1.15 (KHTML, like Gecko) Version/16.4 Mobile/15E148 Safari/604.1","iPhone","Safari",16.4,"iOS","16_4_1",NA,"13302","{""Q0"":5,""Q1"":5,""Q2"":4,""Q3"":5}","[0,1,2,3]","","",""
"html-keyboard-response",22,155159,"0.0-4.0-0.6",80,1,"2023-05-28 21:12:35","1ecd9d38d4622338824de6fd67a72f4c","106.72.54.128","Mozilla/5.0 (iPhone; CPU iPhone OS 16_4_1 like Mac OS X) AppleWebKit/605.1.15 (KHTML, like Gecko) Version/16.4 Mobile/15E148 Safari/604.1","iPhone","Safari",16.4,"iOS","16_4_1",NA,"null","null","","<div style=""font-size:60px;"">+</div>","fixation","[1000]"
"image-keyboard-response",23,163199,"0.0-4.0-1.6",80,1,"2023-05-28 21:12:35","1ecd9d38d4622338824de6fd67a72f4c","106.72.54.128","Mozilla/5.0 (iPhone; CPU iPhone OS 16_4_1 like Mac OS X) AppleWebKit/605.1.15 (KHTML, like Gecko) Version/16.4 Mobile/15E148 Safari/604.1","iPhone","Safari",16.4,"iOS","16_4_1",NA,"null","null","","DE_Longterm_Watch.png","",""
"survey-likert",24,177337,"0.0-4.0-2.6",80,1,"2023-05-28 21:12:35","1ecd9d38d4622338824de6fd67a72f4c","106.72.54.128","Mozilla/5.0 (iPhone; CPU iPhone OS 16_4_1 like Mac OS X) AppleWebKit/605.1.15 (KHTML, like Gecko) Version/16.4 Mobile/15E148 Safari/604.1","iPhone","Safari",16.4,"iOS","16_4_1",NA,"14132","{""Q0"":4,""Q1"":4,""Q2"":4,""Q3"":4}","[0,1,2,3]","","",""
"html-keyboard-response",25,178341,"0.0-4.0-0.7",80,1,"2023-05-28 21:12:35","1ecd9d38d4622338824de6fd67a72f4c","106.72.54.128","Mozilla/5.0 (iPhone; CPU iPhone OS 16_4_1 like Mac OS X) AppleWebKit/605.1.15 (KHTML, like Gecko) Version/16.4 Mobile/15E148 Safari/604.1","iPhone","Safari",16.4,"iOS","16_4_1",NA,"null","null","","<div style=""font-size:60px;"">+</div>","fixation","[1000]"
"image-keyboard-response",26,186407,"0.0-4.0-1.7",80,1,"2023-05-28 21:12:35","1ecd9d38d4622338824de6fd67a72f4c","106.72.54.128","Mozilla/5.0 (iPhone; CPU iPhone OS 16_4_1 like Mac OS X) AppleWebKit/605.1.15 (KHTML, like Gecko) Version/16.4 Mobile/15E148 Safari/604.1","iPhone","Safari",16.4,"iOS","16_4_1",NA,"null","null","","DE_Longterm_Headphones.png","",""
"survey-likert",27,198403,"0.0-4.0-2.7",80,1,"2023-05-28 21:12:35","1ecd9d38d4622338824de6fd67a72f4c","106.72.54.128","Mozilla/5.0 (iPhone; CPU iPhone OS 16_4_1 like Mac OS X) AppleWebKit/605.1.15 (KHTML, like Gecko) Version/16.4 Mobile/15E148 Safari/604.1","iPhone","Safari",16.4,"iOS","16_4_1",NA,"11992","{""Q0"":3,""Q1"":2,""Q2"":6,""Q3"":5}","[0,1,2,3]","","",""
"html-keyboard-response",28,199407,"0.0-4.0-0.8",80,1,"2023-05-28 21:12:35","1ecd9d38d4622338824de6fd67a72f4c","106.72.54.128","Mozilla/5.0 (iPhone; CPU iPhone OS 16_4_1 like Mac OS X) AppleWebKit/605.1.15 (KHTML, like Gecko) Version/16.4 Mobile/15E148 Safari/604.1","iPhone","Safari",16.4,"iOS","16_4_1",NA,"null","null","","<div style=""font-size:60px;"">+</div>","fixation","[1000]"
"image-keyboard-response",29,207461,"0.0-4.0-1.8",80,1,"2023-05-28 21:12:35","1ecd9d38d4622338824de6fd67a72f4c","106.72.54.128","Mozilla/5.0 (iPhone; CPU iPhone OS 16_4_1 like Mac OS X) AppleWebKit/605.1.15 (KHTML, like Gecko) Version/16.4 Mobile/15E148 Safari/604.1","iPhone","Safari",16.4,"iOS","16_4_1",NA,"null","null","","Control_Headphones.png","",""
"survey-likert",30,215112,"0.0-4.0-2.8",80,1,"2023-05-28 21:12:35","1ecd9d38d4622338824de6fd67a72f4c","106.72.54.128","Mozilla/5.0 (iPhone; CPU iPhone OS 16_4_1 like Mac OS X) AppleWebKit/605.1.15 (KHTML, like Gecko) Version/16.4 Mobile/15E148 Safari/604.1","iPhone","Safari",16.4,"iOS","16_4_1",NA,"7647","{""Q0"":4,""Q1"":4,""Q2"":4,""Q3"":4}","[0,1,2,3]","","",""
"html-keyboard-response",31,229438,"0.0-5.0",80,1,"2023-05-28 21:12:35","1ecd9d38d4622338824de6fd67a72f4c","106.72.54.128","Mozilla/5.0 (iPhone; CPU iPhone OS 16_4_1 like Mac OS X) AppleWebKit/605.1.15 (KHTML, like Gecko) Version/16.4 Mobile/15E148 Safari/604.1","iPhone","Safari",16.4,"iOS","16_4_1",NA,"","","","","",""
