"trial_type","trial_index","time_elapsed","internal_node_id","run_id","condition","recorded_at","source_code_version","ip","user_agent","device","browser","browser_version","platform","platform_version","age","rt","response","question_order","stimulus","task","trial_duration"
"html-keyboard-response",0,9337,"0.0-0.0",82,1,"2023-05-29 00:27:43","1ecd9d38d4622338824de6fd67a72f4c","106.72.54.128","Mozilla/5.0 (iPhone; CPU iPhone OS 16_4_1 like Mac OS X) AppleWebKit/605.1.15 (KHTML, like Gecko) Version/16.4 Mobile/15E148 Safari/604.1","iPhone","Safari",16.4,"iOS","16_4_1",NA,"","","","","",""
"survey-text",1,12828,"0.0-1.0",82,1,"2023-05-29 00:27:43","1ecd9d38d4622338824de6fd67a72f4c","106.72.54.128","Mozilla/5.0 (iPhone; CPU iPhone OS 16_4_1 like Mac OS X) AppleWebKit/605.1.15 (KHTML, like Gecko) Version/16.4 Mobile/15E148 Safari/604.1","iPhone","Safari",16.4,"iOS","16_4_1",20,"3438","{""age"":""20""}","","","",""
"survey-multi-select",2,56732,"0.0-2.0",82,1,"2023-05-29 00:27:43","1ecd9d38d4622338824de6fd67a72f4c","106.72.54.128","Mozilla/5.0 (iPhone; CPU iPhone OS 16_4_1 like Mac OS X) AppleWebKit/605.1.15 (KHTML, like Gecko) Version/16.4 Mobile/15E148 Safari/604.1","iPhone","Safari",16.4,"iOS","16_4_1",NA,"43898","{""Gender"":[""Frau""],""Education"":["" Sekundarstufe (Alter: 11-17 Jahre)""]}","[0,1]","","",""
"html-keyboard-response",3,63159,"0.0-3.0",82,1,"2023-05-29 00:27:43","1ecd9d38d4622338824de6fd67a72f4c","106.72.54.128","Mozilla/5.0 (iPhone; CPU iPhone OS 16_4_1 like Mac OS X) AppleWebKit/605.1.15 (KHTML, like Gecko) Version/16.4 Mobile/15E148 Safari/604.1","iPhone","Safari",16.4,"iOS","16_4_1",NA,"","","","","",""
"html-keyboard-response",4,64166,"0.0-4.0-0.0",82,1,"2023-05-29 00:27:43","1ecd9d38d4622338824de6fd67a72f4c","106.72.54.128","Mozilla/5.0 (iPhone; CPU iPhone OS 16_4_1 like Mac OS X) AppleWebKit/605.1.15 (KHTML, like Gecko) Version/16.4 Mobile/15E148 Safari/604.1","iPhone","Safari",16.4,"iOS","16_4_1",NA,"null","null","","<div style=""font-size:60px;"">+</div>","fixation","[1000]"
"image-keyboard-response",5,72244,"0.0-4.0-1.0",82,1,"2023-05-29 00:27:43","1ecd9d38d4622338824de6fd67a72f4c","106.72.54.128","Mozilla/5.0 (iPhone; CPU iPhone OS 16_4_1 like Mac OS X) AppleWebKit/605.1.15 (KHTML, like Gecko) Version/16.4 Mobile/15E148 Safari/604.1","iPhone","Safari",16.4,"iOS","16_4_1",NA,"null","null","","DE_Shortterm_Toothbrush.png","",""
"survey-likert",6,127395,"0.0-4.0-2.0",82,1,"2023-05-29 00:27:43","1ecd9d38d4622338824de6fd67a72f4c","106.72.54.128","Mozilla/5.0 (iPhone; CPU iPhone OS 16_4_1 like Mac OS X) AppleWebKit/605.1.15 (KHTML, like Gecko) Version/16.4 Mobile/15E148 Safari/604.1","iPhone","Safari",16.4,"iOS","16_4_1",NA,"55142","{""Q0"":3,""Q1"":3,""Q2"":5,""Q3"":4}","[0,1,2,3]","","",""
"html-keyboard-response",7,128400,"0.0-4.0-0.1",82,1,"2023-05-29 00:27:43","1ecd9d38d4622338824de6fd67a72f4c","106.72.54.128","Mozilla/5.0 (iPhone; CPU iPhone OS 16_4_1 like Mac OS X) AppleWebKit/605.1.15 (KHTML, like Gecko) Version/16.4 Mobile/15E148 Safari/604.1","iPhone","Safari",16.4,"iOS","16_4_1",NA,"null","null","","<div style=""font-size:60px;"">+</div>","fixation","[1000]"
"image-keyboard-response",8,136475,"0.0-4.0-1.1",82,1,"2023-05-29 00:27:43","1ecd9d38d4622338824de6fd67a72f4c","106.72.54.128","Mozilla/5.0 (iPhone; CPU iPhone OS 16_4_1 like Mac OS X) AppleWebKit/605.1.15 (KHTML, like Gecko) Version/16.4 Mobile/15E148 Safari/604.1","iPhone","Safari",16.4,"iOS","16_4_1",NA,"null","null","","DE_LongTerm_Toothbrush.png","",""
"survey-likert",9,157167,"0.0-4.0-2.1",82,1,"2023-05-29 00:27:43","1ecd9d38d4622338824de6fd67a72f4c","106.72.54.128","Mozilla/5.0 (iPhone; CPU iPhone OS 16_4_1 like Mac OS X) AppleWebKit/605.1.15 (KHTML, like Gecko) Version/16.4 Mobile/15E148 Safari/604.1","iPhone","Safari",16.4,"iOS","16_4_1",NA,"20684","{""Q0"":7,""Q1"":7,""Q2"":0,""Q3"":2}","[0,1,2,3]","","",""
"html-keyboard-response",10,158172,"0.0-4.0-0.2",82,1,"2023-05-29 00:27:43","1ecd9d38d4622338824de6fd67a72f4c","106.72.54.128","Mozilla/5.0 (iPhone; CPU iPhone OS 16_4_1 like Mac OS X) AppleWebKit/605.1.15 (KHTML, like Gecko) Version/16.4 Mobile/15E148 Safari/604.1","iPhone","Safari",16.4,"iOS","16_4_1",NA,"null","null","","<div style=""font-size:60px;"">+</div>","fixation","[1000]"
"image-keyboard-response",11,166233,"0.0-4.0-1.2",82,1,"2023-05-29 00:27:43","1ecd9d38d4622338824de6fd67a72f4c","106.72.54.128","Mozilla/5.0 (iPhone; CPU iPhone OS 16_4_1 like Mac OS X) AppleWebKit/605.1.15 (KHTML, like Gecko) Version/16.4 Mobile/15E148 Safari/604.1","iPhone","Safari",16.4,"iOS","16_4_1",NA,"null","null","","Control_Watch.png","",""
"survey-likert",12,193121,"0.0-4.0-2.2",82,1,"2023-05-29 00:27:43","1ecd9d38d4622338824de6fd67a72f4c","106.72.54.128","Mozilla/5.0 (iPhone; CPU iPhone OS 16_4_1 like Mac OS X) AppleWebKit/605.1.15 (KHTML, like Gecko) Version/16.4 Mobile/15E148 Safari/604.1","iPhone","Safari",16.4,"iOS","16_4_1",NA,"26881","{""Q0"":7,""Q1"":7,""Q2"":0,""Q3"":5}","[0,1,2,3]","","",""
"html-keyboard-response",13,194127,"0.0-4.0-0.3",82,1,"2023-05-29 00:27:43","1ecd9d38d4622338824de6fd67a72f4c","106.72.54.128","Mozilla/5.0 (iPhone; CPU iPhone OS 16_4_1 like Mac OS X) AppleWebKit/605.1.15 (KHTML, like Gecko) Version/16.4 Mobile/15E148 Safari/604.1","iPhone","Safari",16.4,"iOS","16_4_1",NA,"null","null","","<div style=""font-size:60px;"">+</div>","fixation","[1000]"
"image-keyboard-response",14,202200,"0.0-4.0-1.3",82,1,"2023-05-29 00:27:43","1ecd9d38d4622338824de6fd67a72f4c","106.72.54.128","Mozilla/5.0 (iPhone; CPU iPhone OS 16_4_1 like Mac OS X) AppleWebKit/605.1.15 (KHTML, like Gecko) Version/16.4 Mobile/15E148 Safari/604.1","iPhone","Safari",16.4,"iOS","16_4_1",NA,"null","null","","DE_Shortterm_Headphones.png","",""
"survey-likert",15,242221,"0.0-4.0-2.3",82,1,"2023-05-29 00:27:43","1ecd9d38d4622338824de6fd67a72f4c","106.72.54.128","Mozilla/5.0 (iPhone; CPU iPhone OS 16_4_1 like Mac OS X) AppleWebKit/605.1.15 (KHTML, like Gecko) Version/16.4 Mobile/15E148 Safari/604.1","iPhone","Safari",16.4,"iOS","16_4_1",NA,"40012","{""Q0"":6,""Q1"":4,""Q2"":5,""Q3"":6}","[0,1,2,3]","","",""
"html-keyboard-response",16,243226,"0.0-4.0-0.4",82,1,"2023-05-29 00:27:43","1ecd9d38d4622338824de6fd67a72f4c","106.72.54.128","Mozilla/5.0 (iPhone; CPU iPhone OS 16_4_1 like Mac OS X) AppleWebKit/605.1.15 (KHTML, like Gecko) Version/16.4 Mobile/15E148 Safari/604.1","iPhone","Safari",16.4,"iOS","16_4_1",NA,"null","null","","<div style=""font-size:60px;"">+</div>","fixation","[1000]"
"image-keyboard-response",17,251299,"0.0-4.0-1.4",82,1,"2023-05-29 00:27:43","1ecd9d38d4622338824de6fd67a72f4c","106.72.54.128","Mozilla/5.0 (iPhone; CPU iPhone OS 16_4_1 like Mac OS X) AppleWebKit/605.1.15 (KHTML, like Gecko) Version/16.4 Mobile/15E148 Safari/604.1","iPhone","Safari",16.4,"iOS","16_4_1",NA,"null","null","","DE_Longterm_Headphones.png","",""
"survey-likert",18,280869,"0.0-4.0-2.4",82,1,"2023-05-29 00:27:43","1ecd9d38d4622338824de6fd67a72f4c","106.72.54.128","Mozilla/5.0 (iPhone; CPU iPhone OS 16_4_1 like Mac OS X) AppleWebKit/605.1.15 (KHTML, like Gecko) Version/16.4 Mobile/15E148 Safari/604.1","iPhone","Safari",16.4,"iOS","16_4_1",NA,"29561","{""Q0"":6,""Q1"":7,""Q2"":1,""Q3"":3}","[0,1,2,3]","","",""
"html-keyboard-response",19,281875,"0.0-4.0-0.5",82,1,"2023-05-29 00:27:43","1ecd9d38d4622338824de6fd67a72f4c","106.72.54.128","Mozilla/5.0 (iPhone; CPU iPhone OS 16_4_1 like Mac OS X) AppleWebKit/605.1.15 (KHTML, like Gecko) Version/16.4 Mobile/15E148 Safari/604.1","iPhone","Safari",16.4,"iOS","16_4_1",NA,"null","null","","<div style=""font-size:60px;"">+</div>","fixation","[1000]"
"image-keyboard-response",20,289947,"0.0-4.0-1.5",82,1,"2023-05-29 00:27:43","1ecd9d38d4622338824de6fd67a72f4c","106.72.54.128","Mozilla/5.0 (iPhone; CPU iPhone OS 16_4_1 like Mac OS X) AppleWebKit/605.1.15 (KHTML, like Gecko) Version/16.4 Mobile/15E148 Safari/604.1","iPhone","Safari",16.4,"iOS","16_4_1",NA,"null","null","","Control_Headphones.png","",""
"survey-likert",21,309517,"0.0-4.0-2.5",82,1,"2023-05-29 00:27:43","1ecd9d38d4622338824de6fd67a72f4c","106.72.54.128","Mozilla/5.0 (iPhone; CPU iPhone OS 16_4_1 like Mac OS X) AppleWebKit/605.1.15 (KHTML, like Gecko) Version/16.4 Mobile/15E148 Safari/604.1","iPhone","Safari",16.4,"iOS","16_4_1",NA,"19563","{""Q0"":4,""Q1"":2,""Q2"":7,""Q3"":4}","[0,1,2,3]","","",""
"html-keyboard-response",22,310523,"0.0-4.0-0.6",82,1,"2023-05-29 00:27:43","1ecd9d38d4622338824de6fd67a72f4c","106.72.54.128","Mozilla/5.0 (iPhone; CPU iPhone OS 16_4_1 like Mac OS X) AppleWebKit/605.1.15 (KHTML, like Gecko) Version/16.4 Mobile/15E148 Safari/604.1","iPhone","Safari",16.4,"iOS","16_4_1",NA,"null","null","","<div style=""font-size:60px;"">+</div>","fixation","[1000]"
"image-keyboard-response",23,318582,"0.0-4.0-1.6",82,1,"2023-05-29 00:27:43","1ecd9d38d4622338824de6fd67a72f4c","106.72.54.128","Mozilla/5.0 (iPhone; CPU iPhone OS 16_4_1 like Mac OS X) AppleWebKit/605.1.15 (KHTML, like Gecko) Version/16.4 Mobile/15E148 Safari/604.1","iPhone","Safari",16.4,"iOS","16_4_1",NA,"null","null","","DE_Shortterm_watch.png","",""
"survey-likert",24,355091,"0.0-4.0-2.6",82,1,"2023-05-29 00:27:43","1ecd9d38d4622338824de6fd67a72f4c","106.72.54.128","Mozilla/5.0 (iPhone; CPU iPhone OS 16_4_1 like Mac OS X) AppleWebKit/605.1.15 (KHTML, like Gecko) Version/16.4 Mobile/15E148 Safari/604.1","iPhone","Safari",16.4,"iOS","16_4_1",NA,"36500","{""Q0"":4,""Q1"":3,""Q2"":6,""Q3"":2}","[0,1,2,3]","","",""
"html-keyboard-response",25,356096,"0.0-4.0-0.7",82,1,"2023-05-29 00:27:43","1ecd9d38d4622338824de6fd67a72f4c","106.72.54.128","Mozilla/5.0 (iPhone; CPU iPhone OS 16_4_1 like Mac OS X) AppleWebKit/605.1.15 (KHTML, like Gecko) Version/16.4 Mobile/15E148 Safari/604.1","iPhone","Safari",16.4,"iOS","16_4_1",NA,"null","null","","<div style=""font-size:60px;"">+</div>","fixation","[1000]"
"image-keyboard-response",26,364156,"0.0-4.0-1.7",82,1,"2023-05-29 00:27:43","1ecd9d38d4622338824de6fd67a72f4c","106.72.54.128","Mozilla/5.0 (iPhone; CPU iPhone OS 16_4_1 like Mac OS X) AppleWebKit/605.1.15 (KHTML, like Gecko) Version/16.4 Mobile/15E148 Safari/604.1","iPhone","Safari",16.4,"iOS","16_4_1",NA,"null","null","","DE_Longterm_Watch.png","",""
"survey-likert",27,394380,"0.0-4.0-2.7",82,1,"2023-05-29 00:27:43","1ecd9d38d4622338824de6fd67a72f4c","106.72.54.128","Mozilla/5.0 (iPhone; CPU iPhone OS 16_4_1 like Mac OS X) AppleWebKit/605.1.15 (KHTML, like Gecko) Version/16.4 Mobile/15E148 Safari/604.1","iPhone","Safari",16.4,"iOS","16_4_1",NA,"30216","{""Q0"":5,""Q1"":6,""Q2"":2,""Q3"":4}","[0,1,2,3]","","",""
"html-keyboard-response",28,395385,"0.0-4.0-0.8",82,1,"2023-05-29 00:27:43","1ecd9d38d4622338824de6fd67a72f4c","106.72.54.128","Mozilla/5.0 (iPhone; CPU iPhone OS 16_4_1 like Mac OS X) AppleWebKit/605.1.15 (KHTML, like Gecko) Version/16.4 Mobile/15E148 Safari/604.1","iPhone","Safari",16.4,"iOS","16_4_1",NA,"null","null","","<div style=""font-size:60px;"">+</div>","fixation","[1000]"
"image-keyboard-response",29,403318,"0.0-4.0-1.8",82,1,"2023-05-29 00:27:43","1ecd9d38d4622338824de6fd67a72f4c","106.72.54.128","Mozilla/5.0 (iPhone; CPU iPhone OS 16_4_1 like Mac OS X) AppleWebKit/605.1.15 (KHTML, like Gecko) Version/16.4 Mobile/15E148 Safari/604.1","iPhone","Safari",16.4,"iOS","16_4_1",NA,"null","null","","Control_Toothbrush.png","",""
"survey-likert",30,417560,"0.0-4.0-2.8",82,1,"2023-05-29 00:27:43","1ecd9d38d4622338824de6fd67a72f4c","106.72.54.128","Mozilla/5.0 (iPhone; CPU iPhone OS 16_4_1 like Mac OS X) AppleWebKit/605.1.15 (KHTML, like Gecko) Version/16.4 Mobile/15E148 Safari/604.1","iPhone","Safari",16.4,"iOS","16_4_1",NA,"14235","{""Q0"":2,""Q1"":1,""Q2"":8,""Q3"":2}","[0,1,2,3]","","",""
"html-keyboard-response",31,464316,"0.0-5.0",82,1,"2023-05-29 00:27:43","1ecd9d38d4622338824de6fd67a72f4c","106.72.54.128","Mozilla/5.0 (iPhone; CPU iPhone OS 16_4_1 like Mac OS X) AppleWebKit/605.1.15 (KHTML, like Gecko) Version/16.4 Mobile/15E148 Safari/604.1","iPhone","Safari",16.4,"iOS","16_4_1",NA,"","","","","",""
