"trial_type","trial_index","time_elapsed","internal_node_id","run_id","condition","recorded_at","source_code_version","ip","user_agent","device","browser","browser_version","platform","platform_version","age","rt","response","question_order","stimulus","task","trial_duration"
"html-keyboard-response","0","4335","0.0-0.0","8","1","2023-05-15 16:18:34","35a371bf4d1b89eb9efa423149907f28","88.12.159.153","Mozilla/5.0 (iPhone; CPU iPhone OS 16_4_1 like Mac OS X) AppleWebKit/605.1.15 (KHTML, like Gecko) Version/16.4 Mobile/15E148 Safari/604.1","iPhone","Safari","16.4","iOS","16_4_1","NaN","","","","","",""
"survey-text","1","8510","0.0-1.0","8","1","2023-05-15 16:18:34","35a371bf4d1b89eb9efa423149907f28","88.12.159.153","Mozilla/5.0 (iPhone; CPU iPhone OS 16_4_1 like Mac OS X) AppleWebKit/605.1.15 (KHTML, like Gecko) Version/16.4 Mobile/15E148 Safari/604.1","iPhone","Safari","16.4","iOS","16_4_1","NaN","4113","{""age"":""24""}","","","",""
"survey-multi-select","2","14886","0.0-2.0","8","1","2023-05-15 16:18:34","35a371bf4d1b89eb9efa423149907f28","88.12.159.153","Mozilla/5.0 (iPhone; CPU iPhone OS 16_4_1 like Mac OS X) AppleWebKit/605.1.15 (KHTML, like Gecko) Version/16.4 Mobile/15E148 Safari/604.1","iPhone","Safari","16.4","iOS","16_4_1","NaN","6369","{""Gender"":[""Mulher""],""Education"":[""Pós-graduação""]}","[0,1]","","",""
"html-keyboard-response","3","20121","0.0-3.0","8","1","2023-05-15 16:18:34","35a371bf4d1b89eb9efa423149907f28","88.12.159.153","Mozilla/5.0 (iPhone; CPU iPhone OS 16_4_1 like Mac OS X) AppleWebKit/605.1.15 (KHTML, like Gecko) Version/16.4 Mobile/15E148 Safari/604.1","iPhone","Safari","16.4","iOS","16_4_1","NaN","","","","","",""
"html-keyboard-response","4","21128","0.0-4.0-0.0","8","1","2023-05-15 16:18:34","35a371bf4d1b89eb9efa423149907f28","88.12.159.153","Mozilla/5.0 (iPhone; CPU iPhone OS 16_4_1 like Mac OS X) AppleWebKit/605.1.15 (KHTML, like Gecko) Version/16.4 Mobile/15E148 Safari/604.1","iPhone","Safari","16.4","iOS","16_4_1","NaN","null","null","","<div style=""font-size:60px;"">+</div>","fixation","[1000]"
"image-keyboard-response","5","31196","0.0-4.0-1.0","8","1","2023-05-15 16:18:34","35a371bf4d1b89eb9efa423149907f28","88.12.159.153","Mozilla/5.0 (iPhone; CPU iPhone OS 16_4_1 like Mac OS X) AppleWebKit/605.1.15 (KHTML, like Gecko) Version/16.4 Mobile/15E148 Safari/604.1","iPhone","Safari","16.4","iOS","16_4_1","NaN","null","null","","PT_Longterm_Toothbrusch.png","",""
"survey-likert","6","52048","0.0-4.0-2.0","8","1","2023-05-15 16:18:34","35a371bf4d1b89eb9efa423149907f28","88.12.159.153","Mozilla/5.0 (iPhone; CPU iPhone OS 16_4_1 like Mac OS X) AppleWebKit/605.1.15 (KHTML, like Gecko) Version/16.4 Mobile/15E148 Safari/604.1","iPhone","Safari","16.4","iOS","16_4_1","NaN","20845","{""Q0"":7,""Q1"":7,""Q2"":0,""Q3"":2}","[0,1,2,3]","","",""
"html-keyboard-response","7","53051","0.0-4.0-0.1","8","1","2023-05-15 16:18:34","35a371bf4d1b89eb9efa423149907f28","88.12.159.153","Mozilla/5.0 (iPhone; CPU iPhone OS 16_4_1 like Mac OS X) AppleWebKit/605.1.15 (KHTML, like Gecko) Version/16.4 Mobile/15E148 Safari/604.1","iPhone","Safari","16.4","iOS","16_4_1","NaN","null","null","","<div style=""font-size:60px;"">+</div>","fixation","[1000]"
"image-keyboard-response","8","63098","0.0-4.0-1.1","8","1","2023-05-15 16:18:34","35a371bf4d1b89eb9efa423149907f28","88.12.159.153","Mozilla/5.0 (iPhone; CPU iPhone OS 16_4_1 like Mac OS X) AppleWebKit/605.1.15 (KHTML, like Gecko) Version/16.4 Mobile/15E148 Safari/604.1","iPhone","Safari","16.4","iOS","16_4_1","NaN","null","null","","Control_Watch.png","",""
"survey-likert","9","78450","0.0-4.0-2.1","8","1","2023-05-15 16:18:34","35a371bf4d1b89eb9efa423149907f28","88.12.159.153","Mozilla/5.0 (iPhone; CPU iPhone OS 16_4_1 like Mac OS X) AppleWebKit/605.1.15 (KHTML, like Gecko) Version/16.4 Mobile/15E148 Safari/604.1","iPhone","Safari","16.4","iOS","16_4_1","NaN","15345","{""Q0"":7,""Q1"":8,""Q2"":0,""Q3"":7}","[0,1,2,3]","","",""
"html-keyboard-response","10","79455","0.0-4.0-0.2","8","1","2023-05-15 16:18:34","35a371bf4d1b89eb9efa423149907f28","88.12.159.153","Mozilla/5.0 (iPhone; CPU iPhone OS 16_4_1 like Mac OS X) AppleWebKit/605.1.15 (KHTML, like Gecko) Version/16.4 Mobile/15E148 Safari/604.1","iPhone","Safari","16.4","iOS","16_4_1","NaN","null","null","","<div style=""font-size:60px;"">+</div>","fixation","[1000]"
"image-keyboard-response","11","89515","0.0-4.0-1.2","8","1","2023-05-15 16:18:34","35a371bf4d1b89eb9efa423149907f28","88.12.159.153","Mozilla/5.0 (iPhone; CPU iPhone OS 16_4_1 like Mac OS X) AppleWebKit/605.1.15 (KHTML, like Gecko) Version/16.4 Mobile/15E148 Safari/604.1","iPhone","Safari","16.4","iOS","16_4_1","NaN","null","null","","PT_Shortterm_Headphones.png","",""
"survey-likert","12","107564","0.0-4.0-2.2","8","1","2023-05-15 16:18:34","35a371bf4d1b89eb9efa423149907f28","88.12.159.153","Mozilla/5.0 (iPhone; CPU iPhone OS 16_4_1 like Mac OS X) AppleWebKit/605.1.15 (KHTML, like Gecko) Version/16.4 Mobile/15E148 Safari/604.1","iPhone","Safari","16.4","iOS","16_4_1","NaN","18045","{""Q0"":8,""Q1"":8,""Q2"":0,""Q3"":8}","[0,1,2,3]","","",""
"html-keyboard-response","13","108569","0.0-4.0-0.3","8","1","2023-05-15 16:18:34","35a371bf4d1b89eb9efa423149907f28","88.12.159.153","Mozilla/5.0 (iPhone; CPU iPhone OS 16_4_1 like Mac OS X) AppleWebKit/605.1.15 (KHTML, like Gecko) Version/16.4 Mobile/15E148 Safari/604.1","iPhone","Safari","16.4","iOS","16_4_1","NaN","null","null","","<div style=""font-size:60px;"">+</div>","fixation","[1000]"
"image-keyboard-response","14","118631","0.0-4.0-1.3","8","1","2023-05-15 16:18:34","35a371bf4d1b89eb9efa423149907f28","88.12.159.153","Mozilla/5.0 (iPhone; CPU iPhone OS 16_4_1 like Mac OS X) AppleWebKit/605.1.15 (KHTML, like Gecko) Version/16.4 Mobile/15E148 Safari/604.1","iPhone","Safari","16.4","iOS","16_4_1","NaN","null","null","","Control_Toothbrush.png","",""
"survey-likert","15","130853","0.0-4.0-2.3","8","1","2023-05-15 16:18:34","35a371bf4d1b89eb9efa423149907f28","88.12.159.153","Mozilla/5.0 (iPhone; CPU iPhone OS 16_4_1 like Mac OS X) AppleWebKit/605.1.15 (KHTML, like Gecko) Version/16.4 Mobile/15E148 Safari/604.1","iPhone","Safari","16.4","iOS","16_4_1","NaN","12218","{""Q0"":4,""Q1"":4,""Q2"":4,""Q3"":4}","[0,1,2,3]","","",""
"html-keyboard-response","16","131858","0.0-4.0-0.4","8","1","2023-05-15 16:18:34","35a371bf4d1b89eb9efa423149907f28","88.12.159.153","Mozilla/5.0 (iPhone; CPU iPhone OS 16_4_1 like Mac OS X) AppleWebKit/605.1.15 (KHTML, like Gecko) Version/16.4 Mobile/15E148 Safari/604.1","iPhone","Safari","16.4","iOS","16_4_1","NaN","null","null","","<div style=""font-size:60px;"">+</div>","fixation","[1000]"
"image-keyboard-response","17","141920","0.0-4.0-1.4","8","1","2023-05-15 16:18:34","35a371bf4d1b89eb9efa423149907f28","88.12.159.153","Mozilla/5.0 (iPhone; CPU iPhone OS 16_4_1 like Mac OS X) AppleWebKit/605.1.15 (KHTML, like Gecko) Version/16.4 Mobile/15E148 Safari/604.1","iPhone","Safari","16.4","iOS","16_4_1","NaN","null","null","","Control_Headphones.png","",""
"survey-likert","18","150270","0.0-4.0-2.4","8","1","2023-05-15 16:18:34","35a371bf4d1b89eb9efa423149907f28","88.12.159.153","Mozilla/5.0 (iPhone; CPU iPhone OS 16_4_1 like Mac OS X) AppleWebKit/605.1.15 (KHTML, like Gecko) Version/16.4 Mobile/15E148 Safari/604.1","iPhone","Safari","16.4","iOS","16_4_1","NaN","8345","{""Q0"":4,""Q1"":4,""Q2"":4,""Q3"":4}","[0,1,2,3]","","",""
"html-keyboard-response","19","151275","0.0-4.0-0.5","8","1","2023-05-15 16:18:34","35a371bf4d1b89eb9efa423149907f28","88.12.159.153","Mozilla/5.0 (iPhone; CPU iPhone OS 16_4_1 like Mac OS X) AppleWebKit/605.1.15 (KHTML, like Gecko) Version/16.4 Mobile/15E148 Safari/604.1","iPhone","Safari","16.4","iOS","16_4_1","NaN","null","null","","<div style=""font-size:60px;"">+</div>","fixation","[1000]"
"image-keyboard-response","20","161339","0.0-4.0-1.5","8","1","2023-05-15 16:18:34","35a371bf4d1b89eb9efa423149907f28","88.12.159.153","Mozilla/5.0 (iPhone; CPU iPhone OS 16_4_1 like Mac OS X) AppleWebKit/605.1.15 (KHTML, like Gecko) Version/16.4 Mobile/15E148 Safari/604.1","iPhone","Safari","16.4","iOS","16_4_1","NaN","null","null","","PT_Shortterm_Toothbrusch.png","",""
"survey-likert","21","175678","0.0-4.0-2.5","8","1","2023-05-15 16:18:34","35a371bf4d1b89eb9efa423149907f28","88.12.159.153","Mozilla/5.0 (iPhone; CPU iPhone OS 16_4_1 like Mac OS X) AppleWebKit/605.1.15 (KHTML, like Gecko) Version/16.4 Mobile/15E148 Safari/604.1","iPhone","Safari","16.4","iOS","16_4_1","NaN","14335","{""Q0"":8,""Q1"":7,""Q2"":1,""Q3"":1}","[0,1,2,3]","","",""
"html-keyboard-response","22","176682","0.0-4.0-0.6","8","1","2023-05-15 16:18:34","35a371bf4d1b89eb9efa423149907f28","88.12.159.153","Mozilla/5.0 (iPhone; CPU iPhone OS 16_4_1 like Mac OS X) AppleWebKit/605.1.15 (KHTML, like Gecko) Version/16.4 Mobile/15E148 Safari/604.1","iPhone","Safari","16.4","iOS","16_4_1","NaN","null","null","","<div style=""font-size:60px;"">+</div>","fixation","[1000]"
"image-keyboard-response","23","186743","0.0-4.0-1.6","8","1","2023-05-15 16:18:34","35a371bf4d1b89eb9efa423149907f28","88.12.159.153","Mozilla/5.0 (iPhone; CPU iPhone OS 16_4_1 like Mac OS X) AppleWebKit/605.1.15 (KHTML, like Gecko) Version/16.4 Mobile/15E148 Safari/604.1","iPhone","Safari","16.4","iOS","16_4_1","NaN","null","null","","PT_Longterm_Headphones.png","",""
"survey-likert","24","206811","0.0-4.0-2.6","8","1","2023-05-15 16:18:34","35a371bf4d1b89eb9efa423149907f28","88.12.159.153","Mozilla/5.0 (iPhone; CPU iPhone OS 16_4_1 like Mac OS X) AppleWebKit/605.1.15 (KHTML, like Gecko) Version/16.4 Mobile/15E148 Safari/604.1","iPhone","Safari","16.4","iOS","16_4_1","NaN","20063","{""Q0"":7,""Q1"":7,""Q2"":1,""Q3"":7}","[0,1,2,3]","","",""
"html-keyboard-response","25","207815","0.0-4.0-0.7","8","1","2023-05-15 16:18:34","35a371bf4d1b89eb9efa423149907f28","88.12.159.153","Mozilla/5.0 (iPhone; CPU iPhone OS 16_4_1 like Mac OS X) AppleWebKit/605.1.15 (KHTML, like Gecko) Version/16.4 Mobile/15E148 Safari/604.1","iPhone","Safari","16.4","iOS","16_4_1","NaN","null","null","","<div style=""font-size:60px;"">+</div>","fixation","[1000]"
"image-keyboard-response","26","217860","0.0-4.0-1.7","8","1","2023-05-15 16:18:34","35a371bf4d1b89eb9efa423149907f28","88.12.159.153","Mozilla/5.0 (iPhone; CPU iPhone OS 16_4_1 like Mac OS X) AppleWebKit/605.1.15 (KHTML, like Gecko) Version/16.4 Mobile/15E148 Safari/604.1","iPhone","Safari","16.4","iOS","16_4_1","NaN","null","null","","PT_Shortterm_Watch.png","",""
"survey-likert","27","233676","0.0-4.0-2.7","8","1","2023-05-15 16:18:34","35a371bf4d1b89eb9efa423149907f28","88.12.159.153","Mozilla/5.0 (iPhone; CPU iPhone OS 16_4_1 like Mac OS X) AppleWebKit/605.1.15 (KHTML, like Gecko) Version/16.4 Mobile/15E148 Safari/604.1","iPhone","Safari","16.4","iOS","16_4_1","NaN","15811","{""Q0"":8,""Q1"":8,""Q2"":1,""Q3"":7}","[0,1,2,3]","","",""
"html-keyboard-response","28","234680","0.0-4.0-0.8","8","1","2023-05-15 16:18:34","35a371bf4d1b89eb9efa423149907f28","88.12.159.153","Mozilla/5.0 (iPhone; CPU iPhone OS 16_4_1 like Mac OS X) AppleWebKit/605.1.15 (KHTML, like Gecko) Version/16.4 Mobile/15E148 Safari/604.1","iPhone","Safari","16.4","iOS","16_4_1","NaN","null","null","","<div style=""font-size:60px;"">+</div>","fixation","[1000]"
"image-keyboard-response","29","244726","0.0-4.0-1.8","8","1","2023-05-15 16:18:34","35a371bf4d1b89eb9efa423149907f28","88.12.159.153","Mozilla/5.0 (iPhone; CPU iPhone OS 16_4_1 like Mac OS X) AppleWebKit/605.1.15 (KHTML, like Gecko) Version/16.4 Mobile/15E148 Safari/604.1","iPhone","Safari","16.4","iOS","16_4_1","NaN","null","null","","PT_Longterm_Watch.png","",""
"survey-likert","30","256560","0.0-4.0-2.8","8","1","2023-05-15 16:18:34","35a371bf4d1b89eb9efa423149907f28","88.12.159.153","Mozilla/5.0 (iPhone; CPU iPhone OS 16_4_1 like Mac OS X) AppleWebKit/605.1.15 (KHTML, like Gecko) Version/16.4 Mobile/15E148 Safari/604.1","iPhone","Safari","16.4","iOS","16_4_1","NaN","11820","{""Q0"":8,""Q1"":8,""Q2"":0,""Q3"":8}","[0,1,2,3]","","",""
"html-keyboard-response","31","270849","0.0-5.0","8","1","2023-05-15 16:18:34","35a371bf4d1b89eb9efa423149907f28","88.12.159.153","Mozilla/5.0 (iPhone; CPU iPhone OS 16_4_1 like Mac OS X) AppleWebKit/605.1.15 (KHTML, like Gecko) Version/16.4 Mobile/15E148 Safari/604.1","iPhone","Safari","16.4","iOS","16_4_1","NaN","","","","","",""
